File: NMC532 vs graphite/hc_gr.txt
volts	mAhg
1.12276	2.837E-05
1.11269	0.0450587
1.10262	0.117835
1.09255	0.205399
1.08248	0.301928
1.0724	0.404003
1.06233	0.511029
1.05226	0.623594
1.04219	0.739975
1.03212	0.861364
1.02205	0.986972
1.01198	1.11727
1.00191	1.24902
0.991836	1.38483
0.981765	1.52519
0.971695	1.6671
0.961624	1.81519
0.951553	1.96633
0.941482	2.11841
0.9314107	2.27544
0.92134	2.43423
0.911269	2.59519
0.901198	2.75956
0.891127	2.92424
0.881056	3.09101
0.870985	3.25902
0.860914	3.42876
0.850843	3.59928
0.840772	3.77167
0.830701	3.94427
0.8206302	4.1177
0.810559	4.29026
0.800488	4.46237
0.790417	4.63787
0.780346	4.81559
0.770123	4.99501
0.760052	5.17937
0.749981	5.36358
0.73991	5.55328
0.729839	5.74916
0.719768	5.94808
0.709697	6.16098
0.699626	6.37664
0.6895552	6.59914
0.679484	6.83144
0.669413	7.06992
0.659342	7.31476
0.649271	7.56891
0.6392	7.82423
0.629129	8.09164
0.619059	8.36351
0.609293	8.63538
0.600137	8.90725
0.590677	9.17912
0.581674	9.45098
0.572976	9.72285
0.564431	9.99472
0.556039	10.2666
0.547951	10.5385
0.540322	10.8103
0.53254	11.0822
0.525368	11.3541
0.5178912	11.6259
0.510719	11.8978
0.503548	12.1697
0.496986	12.4415
0.490272	12.7134
0.4835584	12.9853
0.4773022	13.2571
0.471046	13.529
0.465095	13.8009
0.458991	14.0728
0.453193	14.3446
0.447852	14.6165
0.442054	14.8884
0.436408	15.1602
0.430915	15.4321
0.425727	15.704
0.420539	15.9758
0.415351	16.2477
0.4103151	16.5196
0.405432	16.7914
0.400549	17.0633
0.395514	17.3352
0.390936	17.6071
0.386053	17.8789
0.381628	18.1508
0.377203	18.4227
0.3727779	18.6945
0.368505	18.9664
0.364233	19.2383
0.35996	19.5101
0.355993	19.782
0.351873	20.0539
0.3479057	20.3257
0.343938	20.5976
0.339818	20.8695
0.336156	21.1413
0.332189	21.4132
0.328527	21.6851
0.324712	21.957
0.321202	22.2288
0.317693	22.5007
0.314183	22.7726
0.310674	23.0444
0.307164	23.3163
0.303655	23.5882
0.300603	23.86
0.297551	24.1319
0.294194	24.4038
0.29099	24.6756
0.287633	24.9475
0.284733	25.2194
0.281529	25.4913
0.278477	25.7631
0.275578	26.035
0.272679	26.3069
0.2699321	26.5787
0.26688	26.8506
0.264134	27.1225
0.261387	27.3943
0.258793	27.6662
0.256046	27.9381
0.253147	28.2099
0.250553	28.4818
0.2481117	28.7537
0.24567	29.0255
0.243229	29.2974
0.240482	29.5693
0.238346	29.8412
0.235752	30.113
0.233616	30.3849
0.231479	30.6568
0.229191	30.9286
0.227054	31.2005
0.224918	31.4724
0.2230869	31.7442
0.221103	32.0161
0.21912	32.288
0.217594	32.5598
0.216068	32.8317
0.214542	33.1036
0.213169	33.3755
0.211795	33.6473
0.211032	33.9192
0.210117	34.1911
0.209506	34.4629
0.209201	34.7348
0.208896	35.0067
0.208286	35.2785
0.208286	35.5504
0.208133	35.8223
0.20798	36.0941
0.20798	36.366
0.2075227	36.6379
0.20737	36.9097
0.2075227	37.1816
0.20737	37.4535
0.20737	37.7253
0.207218	37.9972
0.207218	38.2691
0.207218	38.541
0.207065	38.8128
0.207065	39.0847
0.206912	39.3566
0.20676	39.6284
0.206912	39.9003
0.20676	40.1722
0.206607	40.444
0.206607	40.7159
0.206607	40.9878
0.206455	41.2596
0.206302	41.5315
0.206302	41.8034
0.206149	42.0753
0.206149	42.3471
0.2059968	42.619
0.205844	42.8909
0.205692	43.1627
0.205539	43.4346
0.205539	43.7065
0.205234	43.9783
0.205081	44.2502
0.205081	44.5221
0.204776	44.7939
0.204776	45.0658
0.204623	45.3377
0.2043183	45.6095
0.2043183	45.8814
0.2043183	46.1533
0.204166	46.4252
0.203861	46.697
0.203708	46.9689
0.203708	47.2408
0.203403	47.5126
0.20325	47.7845
0.203098	48.0564
0.2027924	48.3282
0.202487	48.6001
0.202335	48.872
0.202029	49.1438
0.201877	49.4157
0.201419	49.6876
0.201114	49.9595
0.200961	50.2313
0.200656	50.5032
0.200504	50.7751
0.200046	51.0469
0.200046	51.3188
0.199588	51.5907
0.199283	51.8625
0.198978	52.1344
0.198672	52.4063
0.198215	52.6781
0.197604	52.95
0.197299	53.2219
0.196994	53.4937
0.1965362	53.7656
0.196078	54.0375
0.195773	54.3093
0.195315	54.5812
0.194858	54.8531
0.1944	55.125
0.19379	55.3968
0.193332	55.6687
0.192874	55.9406
0.192416	56.2124
0.191653	56.4843
0.191348	56.7562
0.190738	57.028
0.19028	57.2999
0.18967	57.5718
0.189059	57.8437
0.188449	58.1155
0.188144	58.3874
0.187381	58.6593
0.186618	58.9311
0.18616	59.203
0.18555	59.4749
0.185092	59.7467
0.184329	60.0186
0.183871	60.2905
0.182956	60.5623
0.18265	60.8342
0.181735	61.1061
0.181125	61.3779
0.180514	61.6498
0.179599	61.9217
0.179141	62.1935
0.178531	62.4654
0.1779202	62.7373
0.17731	63.0092
0.176394	63.281
0.175784	63.5529
0.175174	63.8248
0.1747158	64.0966
0.173953	64.3685
0.173495	64.6404
0.172732	64.9122
0.172122	65.1841
0.171664	65.456
0.171054	65.7278
0.170443	65.9997
0.169833	66.2716
0.169223	66.5435
0.168612	66.8153
0.168154	67.0872
0.167544	67.3591
0.167086	67.6309
0.166476	67.9028
0.165713	68.1747
0.165255	68.4465
0.164645	68.7184
0.164034	68.9903
0.163577	69.2621
0.162814	69.534
0.1622034	69.8059
0.161288	70.0777
0.16083	70.3496
0.16022	70.6215
0.159609	70.8934
0.158694	71.1652
0.158236	71.4371
0.1576257	71.709
0.156863	71.9808
0.1561	72.2527
0.155489	72.5246
0.154726	72.7964
0.153964	73.0683
0.153506	73.3402
0.152743	73.612
0.152285	73.8839
0.151522	74.1558
0.151217	74.4277
0.150607	74.6995
0.150149	74.9714
0.1498436	75.2433
0.149386	75.5151
0.149081	75.787
0.148928	76.0589
0.148318	76.3307
0.14786	76.6026
0.147555	76.8745
0.147097	77.1463
0.146792	77.4182
0.146334	77.6901
0.145724	77.9619
0.145418	78.2338
0.1451133	78.5057
0.144503	78.7775
0.143893	79.0494
0.143435	79.3213
0.142977	79.5932
0.142519	79.865
0.1419089	80.1369
0.141451	80.4088
0.140536	80.6806
0.14023	80.9525
0.13962	81.2244
0.13901	81.4962
0.138399	81.7681
0.137789	82.04
0.137179	82.3119
0.136263	82.5837
0.135805	82.8556
0.135195	83.1275
0.134585	83.3993
0.133822	83.6712
0.133059	83.9431
0.1326009	84.2149
0.131991	84.4868
0.131228	84.7587
0.130617	85.0305
0.130007	85.3024
0.129397	85.5743
0.128939	85.8461
0.128786	86.118
0.128023	86.3899
0.128176	86.6617
0.127718	86.9336
0.127565	87.2055
0.127413	87.4774
0.12726	87.7492
0.127108	88.0211
0.127108	88.293
0.126802	88.5648
0.12665	88.8367
0.126497	89.1086
0.126497	89.3804
0.1263447	89.6523
0.126192	89.9242
0.12604	90.196
0.125887	90.4679
0.125887	90.7398
0.125887	91.0117
0.125429	91.2835
0.125429	91.5554
0.125277	91.8273
0.125124	92.0991
0.125124	92.371
0.1248188	92.6429
0.124971	92.9147
0.124666	93.1866
0.124514	93.4585
0.124514	93.7303
0.124361	94.0022
0.124056	94.2741
0.123903	94.5459
0.123751	94.8178
0.123751	95.0897
0.1232929	95.3616
0.12314	95.6334
0.122988	95.9053
0.122835	96.1772
0.122683	96.449
0.12253	96.7209
0.122377	96.9928
0.122225	97.2646
0.122072	97.5365
0.122072	97.8084
0.121767	98.0802
0.121767	98.3521
0.1216144	98.624
0.121462	98.8959
0.121462	99.1677
0.121309	99.4396
0.121157	99.7115
0.121004	99.9833
0.121004	100.255
0.120851	100.527
0.120699	100.799
0.120699	101.071
0.120546	101.343
0.120546	101.615
0.120546	101.886
0.120241	102.158
0.1200885	102.43
0.120241	102.702
0.119936	102.974
0.119478	103.246
0.119631	103.518
0.119478	103.789
0.119478	104.061
0.119326	104.333
0.119326	104.605
0.119326	104.877
0.119173	105.149
0.11902	105.421
0.11902	105.693
0.119173	105.964
0.118868	106.236
0.118868	106.508
0.118868	106.78
0.118715	107.052
0.118715	107.324
0.118868	107.596
0.118715	107.868
0.118868	108.139
0.118715	108.411
0.1185626	108.683
0.1185626	108.955
0.1185626	109.227
0.1185626	109.499
0.1185626	109.771
0.118257	110.042
0.1185626	110.314
0.118257	110.586
0.118257	110.858
0.118105	111.13
0.118257	111.402
0.118105	111.674
0.118105	111.946
0.117952	112.217
0.118105	112.489
0.117952	112.761
0.118105	113.033
0.117952	113.305
0.117952	113.577
0.117952	113.849
0.1178	114.121
0.117952	114.392
0.117952	114.664
0.117952	114.936
0.117952	115.208
0.1178	115.48
0.117952	115.752
0.1178	116.024
0.1178	116.295
0.1178	116.567
0.1178	116.839
0.1178	117.111
0.117647	117.383
0.117647	117.655
0.117647	117.927
0.1178	118.199
0.117647	118.47
0.117494	118.742
0.117647	119.014
0.117494	119.286
0.117494	119.558
0.117647	119.83
0.117494	120.102
0.117494	120.373
0.117494	120.645
0.117342	120.917
0.117494	121.189
0.117494	121.461
0.117494	121.733
0.117342	122.005
0.117342	122.277
0.117342	122.548
0.117342	122.82
0.117494	123.092
0.117342	123.364
0.117189	123.636
0.117342	123.908
0.117189	124.18
0.1170367	124.452
0.117189	124.723
0.117189	124.995
0.117189	125.267
0.117189	125.539
0.1170367	125.811
0.117342	126.083
0.117189	126.355
0.1170367	126.626
0.1170367	126.898
0.117189	127.17
0.1170367	127.442
0.1170367	127.714
0.1170367	127.986
0.1170367	128.258
0.1170367	128.53
0.1170367	128.801
0.1170367	129.073
0.1170367	129.345
0.1170367	129.617
0.116884	129.889
0.116884	130.161
0.116884	130.433
0.116732	130.705
0.116884	130.976
0.1170367	131.248
0.116884	131.52
0.116884	131.792
0.116884	132.064
0.116884	132.336
0.116884	132.608
0.116732	132.879
0.116732	133.151
0.116732	133.423
0.116732	133.695
0.116579	133.967
0.116732	134.239
0.116426	134.511
0.116579	134.783
0.116579	135.054
0.116426	135.326
0.116579	135.598
0.116732	135.87
0.116426	136.142
0.116579	136.414
0.116426	136.686
0.116579	136.957
0.116579	137.229
0.116274	137.501
0.116426	137.773
0.116579	138.045
0.116426	138.317
0.116579	138.589
0.116426	138.861
0.116121	139.132
0.116121	139.404
0.116121	139.676
0.116274	139.948
0.116274	140.22
0.116274	140.492
0.116274	140.764
0.116121	141.036
0.115969	141.307
0.116121	141.579
0.116274	141.851
0.115969	142.123
0.116121	142.395
0.115969	142.667
0.115816	142.939
0.115816	143.21
0.115816	143.482
0.115969	143.754
0.115969	144.026
0.115816	144.298
0.115816	144.57
0.115816	144.842
0.115663	145.114
0.115816	145.385
0.115663	145.657
0.115663	145.929
0.115663	146.201
0.1155108	146.473
0.115663	146.745
0.115663	147.017
0.115663	147.289
0.1155108	147.56
0.1155108	147.832
0.1155108	148.104
0.1155108	148.376
0.1155108	148.648
0.115358	148.92
0.115358	149.192
0.1155108	149.463
0.115358	149.735
0.115358	150.007
0.115358	150.279
0.115206	150.551
0.115358	150.823
0.115358	151.095
0.115206	151.367
0.115358	151.638
0.115358	151.91
0.115206	152.182
0.115206	152.454
0.115053	152.726
0.115053	152.998
0.115053	153.27
0.115053	153.542
0.1149	153.813
0.115053	154.085
0.115053	154.357
0.1149	154.629
0.1149	154.901
0.1149	155.173
0.1149	155.445
0.114748	155.716
0.1149	155.988
0.1149	156.26
0.114748	156.532
0.114748	156.804
0.1149	157.076
0.114748	157.348
0.114748	157.62
0.114595	157.891
0.114595	158.163
0.114595	158.435
0.114595	158.707
0.114595	158.979
0.114595	159.251
0.11429	159.523
0.114443	159.794
0.114443	160.066
0.11429	160.338
0.11429	160.61
0.114137	160.882
0.11429	161.154
0.114137	161.426
0.114137	161.698
0.114137	161.969
0.113985	162.241
0.1138323	162.513
0.1138323	162.785
0.1138323	163.057
0.1138323	163.329
0.11368	163.601
0.11368	163.873
0.11368	164.144
0.11368	164.416
0.113527	164.688
0.113375	164.96
0.113527	165.232
0.113375	165.504
0.113375	165.776
0.113222	166.047
0.113069	166.319
0.113222	166.591
0.113069	166.863
0.112917	167.135
0.112917	167.407
0.112917	167.679
0.112764	167.951
0.112612	168.222
0.112459	168.494
0.112459	168.766
0.1123064	169.038
0.1123064	169.31
0.112154	169.582
0.112154	169.854
0.112154	170.126
0.112001	170.397
0.111849	170.669
0.111696	170.941
0.111849	171.213
0.111696	171.485
0.111543	171.757
0.111391	172.029
0.111391	172.3
0.111391	172.572
0.111238	172.844
0.111086	173.116
0.111086	173.388
0.1107805	173.66
0.110628	173.932
0.110475	174.204
0.110323	174.475
0.110323	174.747
0.110323	175.019
0.110018	175.291
0.109865	175.563
0.109712	175.835
0.109407	176.107
0.109407	176.378
0.1092546	176.65
0.108797	176.922
0.108492	177.194
0.108492	177.466
0.108339	177.738
0.108186	178.01
0.107881	178.282
0.107729	178.553
0.1075761	178.825
0.107424	179.097
0.107271	179.369
0.106813	179.641
0.106508	179.913
0.106355	180.185
0.1060502	180.457
0.105745	180.728
0.105135	181
0.105135	181.272
0.104677	181.544
0.104372	181.816
0.104067	182.088
0.103609	182.36
0.103304	182.631
0.102693	182.903
0.102388	183.175
0.101778	183.447
0.10132	183.719
0.100862	183.991
0.100252	184.263
0.09964141	184.535
0.09918364	184.806
0.09857328	185.078
0.09796292	185.35
0.09735256	185.622
0.09689479	185.894
0.09613184	186.166
0.09552148	186.438
0.09475853	186.71
0.09399557	186.981
0.09338521	187.253
0.09292744	187.525
0.09216449	187.797
0.09124895	188.069
0.09063859	188.341
0.09018082	188.613
0.08957046	188.884
0.0889601	189.156
0.08834974	189.428
0.08804456	189.7
0.08728161	189.972
0.08697642	190.244
0.08651865	190.516
0.08621347	190.788
0.0857557	191.059
0.08545052	191.331
0.08514534	191.603
0.08484016	191.875
0.08453498	192.147
0.08438239	192.419
0.08392462	192.691
0.08392462	192.962
0.08361944	193.234
0.08331426	193.506
0.08331426	193.778
0.08316167	194.05
0.08316167	194.322
0.08300908	194.594
0.08300908	194.866
0.08285649	195.137
0.08285649	195.409
0.08285649	195.681
0.08285649	195.953
0.0827039	196.225
0.08285649	196.497
0.08285649	196.769
0.08285649	197.041
0.08285649	197.312
0.08285649	197.584
0.08300908	197.856
0.08285649	198.128
0.08316167	198.4
0.08316167	198.672
0.08300908	198.944
0.08300908	199.215
0.08300908	199.487
0.08316167	199.759
0.08316167	200.031
0.08316167	200.303
0.08331426	200.575
0.08300908	200.847
0.08316167	201.119
0.08331426	201.39
0.08331426	201.662
0.08316167	201.934
0.08331426	202.206
0.08331426	202.478
0.08331426	202.75
0.08331426	203.022
0.08331426	203.294
0.08346685	203.565
0.08331426	203.837
0.08331426	204.109
0.08361944	204.381
0.08346685	204.653
0.08331426	204.925
0.08331426	205.197
0.08346685	205.468
0.08331426	205.74
0.08346685	206.012
0.08331426	206.284
0.08346685	206.556
0.08346685	206.828
0.08346685	207.1
0.08346685	207.372
0.08331426	207.643
0.08346685	207.915
0.08346685	208.187
0.08346685	208.459
0.08346685	208.731
0.08346685	209.003
0.08346685	209.275
0.08346685	209.546
0.08346685	209.818
0.08346685	210.09
0.08346685	210.362
0.08346685	210.634
0.08346685	210.906
0.08331426	211.178
0.08346685	211.45
0.08346685	211.721
0.08346685	211.993
0.08331426	212.265
0.08346685	212.537
0.08346685	212.809
0.08346685	213.081
0.08346685	213.353
0.08331426	213.625
0.08346685	213.896
0.08346685	214.168
0.08346685	214.44
0.08346685	214.712
0.08331426	214.984
0.08331426	215.256
0.08331426	215.528
0.08346685	215.799
0.08331426	216.071
0.08346685	216.343
0.08331426	216.615
0.08331426	216.887
0.08331426	217.159
0.08331426	217.431
0.08346685	217.703
0.08346685	217.974
0.08331426	218.246
0.08331426	218.518
0.08331426	218.79
0.08331426	219.062
0.08346685	219.334
0.08316167	219.606
0.08331426	219.878
0.08331426	220.149
0.08316167	220.421
0.08331426	220.693
0.08331426	220.965
0.08346685	221.237
0.08346685	221.509
0.08331426	221.781
0.08331426	222.052
0.08346685	222.324
0.08331426	222.596
0.08331426	222.868
0.08331426	223.14
0.08316167	223.412
0.08316167	223.684
0.08316167	223.956
0.08316167	224.227
0.08331426	224.499
0.08331426	224.771
0.08316167	225.043
0.08331426	225.315
0.08331426	225.587
0.08346685	225.859
0.08331426	226.13
0.08331426	226.402
0.08316167	226.674
0.08316167	226.946
0.08316167	227.218
0.08331426	227.49
0.08331426	227.762
0.08331426	228.034
0.08331426	228.305
0.08331426	228.577
0.08331426	228.849
0.08316167	229.121
0.08300908	229.393
0.08316167	229.665
0.08316167	229.937
0.08316167	230.209
0.08316167	230.48
0.08316167	230.752
0.08316167	231.024
0.08331426	231.296
0.08316167	231.568
0.08316167	231.84
0.08316167	232.112
0.08316167	232.383
0.08316167	232.655
0.08316167	232.927
0.08316167	233.199
0.08316167	233.471
0.08316167	233.743
0.08316167	234.015
0.08331426	234.287
0.08316167	234.558
0.08316167	234.83
0.08316167	235.102
0.08316167	235.374
0.08316167	235.646
0.08300908	235.918
0.08300908	236.19
0.08300908	236.462
0.08300908	236.733
0.08300908	237.005
0.08316167	237.277
0.08316167	237.549
0.08316167	237.821
0.08316167	238.093
0.08316167	238.365
0.08316167	238.636
0.08300908	238.908
0.08300908	239.18
0.08316167	239.452
0.08316167	239.724
0.08300908	239.996
0.08316167	240.268
0.08300908	240.54
0.08300908	240.811
0.08316167	241.083
0.08300908	241.355
0.08316167	241.627
0.08300908	241.899
0.08300908	242.171
0.08300908	242.443
0.08300908	242.714
0.08316167	242.986
0.08300908	243.258
0.08300908	243.53
0.08300908	243.802
0.08300908	244.074
0.08300908	244.346
0.08300908	244.618
0.08300908	244.889
0.08300908	245.161
0.08316167	245.433
0.08285649	245.705
0.08285649	245.977
0.08300908	246.249
0.08316167	246.521
0.08300908	246.793
0.08285649	247.064
0.08300908	247.336
0.0827039	247.608
0.08285649	247.88
0.08300908	248.152
0.08285649	248.424
0.08285649	248.696
0.08285649	248.967
0.08285649	249.239
0.08285649	249.511
0.08285649	249.783
0.08300908	250.055
0.08285649	250.327
0.08285649	250.599
0.08285649	250.871
0.08300908	251.142
0.08285649	251.414
0.08285649	251.686
0.08285649	251.958
0.0827039	252.23
0.08300908	252.502
0.08285649	252.774
0.08285649	253.046
0.08300908	253.317
0.0827039	253.589
0.08285649	253.861
0.0827039	254.133
0.08285649	254.405
0.08285649	254.677
0.08300908	254.949
0.08285649	255.22
0.08285649	255.492
0.08300908	255.764
0.0827039	256.036
0.08285649	256.308
0.0827039	256.58
0.0827039	256.852
0.08285649	257.124
0.08285649	257.395
0.0827039	257.667
0.08255131	257.939
0.0827039	258.211
0.08285649	258.483
0.08300908	258.755
0.0827039	259.027
0.0827039	259.298
0.08285649	259.57
0.0827039	259.842
0.08285649	260.114
0.08285649	260.386
0.0827039	260.658
0.0827039	260.93
0.0827039	261.202
0.0827039	261.473
0.0827039	261.745
0.08255131	262.017
0.0827039	262.289
0.0827039	262.561
0.0827039	262.833
0.08285649	263.105
0.0827039	263.377
0.0827039	263.648
0.0827039	263.92
0.08255131	264.192
0.0827039	264.464
0.0827039	264.736
0.0827039	265.008
0.0827039	265.28
0.08255131	265.551
0.08255131	265.823
0.0827039	266.095
0.08255131	266.367
0.0827039	266.639
0.0827039	266.911
0.0827039	267.183
0.08255131	267.455
0.08255131	267.726
0.08255131	267.998
0.08255131	268.27
0.08255131	268.542
0.08255131	268.814
0.08255131	269.086
0.08255131	269.358
0.08255131	269.63
0.08255131	269.901
0.08255131	270.173
0.08255131	270.445
0.08255131	270.717
0.08255131	270.989
0.08255131	271.261
0.08255131	271.533
0.08255131	271.804
0.0827039	272.076
0.08239872	272.348
0.08239872	272.62
0.08255131	272.892
0.08255131	273.164
0.08255131	273.436
0.08239872	273.708
0.08255131	273.979
0.08255131	274.251
0.08255131	274.523
0.08255131	274.795
0.08239872	275.067
0.08255131	275.339
0.08239872	275.611
0.08239872	275.882
0.08255131	276.154
0.08255131	276.426
0.08239872	276.698
0.08255131	276.97
0.08239872	277.242
0.08255131	277.514
0.08255131	277.786
0.08239872	278.057
0.08255131	278.329
0.08239872	278.601
0.08255131	278.873
0.08239872	279.145
0.08255131	279.417
0.08239872	279.689
0.08224613	279.961
0.08239872	280.232
0.08255131	280.504
0.08239872	280.776
0.08239872	281.048
0.08239872	281.32
0.08255131	281.592
0.08255131	281.864
0.08239872	282.135
0.08239872	282.407
0.08255131	282.679
0.08224613	282.951
0.08224613	283.223
0.08239872	283.495
0.08239872	283.767
0.08239872	284.039
0.08239872	284.31
0.08239872	284.582
0.08239872	284.854
0.08239872	285.126
0.08239872	285.398
0.08239872	285.67
0.08224613	285.942
0.08224613	286.214
0.08239872	286.485
0.08224613	286.757
0.08224613	287.029
0.08209354	287.301
0.08239872	287.573
0.08224613	287.845
0.08239872	288.117
0.08224613	288.388
0.08224613	288.66
0.08224613	288.932
0.08224613	289.204
0.08224613	289.476
0.08209354	289.748
0.08209354	290.02
0.08209354	290.292
0.08209354	290.563
0.08209354	290.835
0.08209354	291.107
0.08209354	291.379
0.08209354	291.651
0.08224613	291.923
0.08209354	292.195
0.08209354	292.467
0.08209354	292.738
0.08224613	293.01
0.08209354	293.282
0.08224613	293.554
0.08194095	293.826
0.08209354	294.098
0.08209354	294.37
0.08209354	294.641
0.08209354	294.913
0.08209354	295.185
0.08194095	295.457
0.08194095	295.729
0.08209354	296.001
0.08209354	296.273
0.08194095	296.545
0.08194095	296.816
0.08209354	297.088
0.08178836	297.36
0.08194095	297.632
0.08194095	297.904
0.08194095	298.176
0.08194095	298.448
0.08194095	298.719
0.08194095	298.991
0.08194095	299.263
0.08194095	299.535
0.08194095	299.807
0.08194095	300.079
0.08194095	300.351
0.08178836	300.623
0.08178836	300.894
0.08178836	301.166
0.08163577	301.438
0.08163577	301.71
0.08194095	301.982
0.08163577	302.254
0.08163577	302.526
0.08163577	302.798
0.08178836	303.069
0.08148318	303.341
0.08163577	303.613
0.08163577	303.885
0.08163577	304.157
0.08148318	304.429
0.08163577	304.701
0.08148318	304.972
0.08163577	305.244
0.08133059	305.516
0.08148318	305.788
0.08148318	306.06
0.08133059	306.332
0.08133059	306.604
0.08133059	306.876
0.081178	307.147
0.081178	307.419
0.081178	307.691
0.081178	307.963
0.081178	308.235
0.081178	308.507
0.081178	308.779
0.081178	309.051
0.08102541	309.322
0.08102541	309.594
0.08087282	309.866
0.08087282	310.138
0.08102541	310.41
0.08072023	310.682
0.08072023	310.954
0.08072023	311.225
0.08041505	311.497
0.08072023	311.769
0.08056764	312.041
0.08056764	312.313
0.08041505	312.585
0.08026246	312.857
0.08041505	313.129
0.08041505	313.4
0.08026246	313.672
0.08026246	313.944
0.08026246	314.216
0.08010986	314.488
0.08010986	314.76
0.07995727	315.032
0.07995727	315.303
0.07980468	315.575
0.07980468	315.847
0.07980468	316.119
0.07965209	316.391
0.0794995	316.663
0.07965209	316.935
0.0794995	317.207
0.07934691	317.478
0.07934691	317.75
0.07934691	318.022
0.07919432	318.294
0.07919432	318.566
0.07919432	318.838
0.07904173	319.11
0.07888914	319.382
0.07873655	319.653
0.07873655	319.925
0.07873655	320.197
0.07858396	320.469
0.07858396	320.741
0.07843137	321.013
0.07827878	321.285
0.07812619	321.556
0.07812619	321.828
0.07782101	322.1
0.0779736	322.372
0.07766842	322.644
0.07751583	322.916
0.07736324	323.188
0.07705806	323.46
0.07690547	323.731
0.07690547	324.003
0.07675288	324.275
0.07675288	324.547
0.0764477	324.819
0.0764477	325.091
0.07614252	325.363
0.07598993	325.635
0.07583734	325.906
0.07553216	326.178
0.07553216	326.45
0.07522698	326.722
0.07507439	326.994
0.07507439	327.266
0.07461662	327.538
0.07446403	327.809
0.07400626	328.081
0.07385367	328.353
0.07370108	328.625
0.0733959	328.897
0.07324331	329.169
0.07293812	329.441
0.07263294	329.713
0.07248035	329.984
0.07232776	330.256
0.07202258	330.528
0.0717174	330.8
0.07141222	331.072
0.07125963	331.344
0.07080186	331.616
0.07064927	331.887
0.0701915	332.159
0.06973373	332.431
0.06942855	332.703
0.06927596	332.975
0.0686656	333.247
0.06836042	333.519
0.06805524	333.791
0.06775006	334.062
0.06729229	334.334
0.06698711	334.606
0.06683452	334.878
0.06607156	335.15
0.06576638	335.422
0.0654612	335.694
0.06500343	335.966
0.06439307	336.237
0.0639353	336.509
0.06332494	336.781
0.06286717	337.053
0.06256199	337.325
0.06195163	337.597
0.06164645	337.869
0.06103609	338.14
0.06057832	338.412
0.05996796	338.684
0.0593576	338.956
0.05874723	339.228
0.05828946	339.5
0.0576791	339.772
0.05706874	340.044
0.05661097	340.315
0.05600061	340.587
0.05523766	340.859
0.05447471	341.131
0.05386435	341.403
0.05325399	341.675
0.05264363	341.947
0.05172808	342.219
0.05111772	342.49
0.05050736	342.762
0.04974441	343.034
0.04882887	343.306
0.04806592	343.578
0.04745556	343.85
0.0468452	344.122
0.04592966	344.393
0.04501411	344.665
0.04425116	344.937
0.04348821	345.209
0.04272526	345.481
0.04196231	345.753
0.04089418	346.025
0.04013123	346.297
0.03936828	346.568
0.03830014	346.84
0.03753719	347.112
0.03646906	347.384
0.03555352	347.656
0.03479057	347.928
0.03356985	348.2
0.0328069	348.471
0.03204395	348.743
0.03097581	349.015
0.03006027	349.287
0.02899214	349.559
0.02822919	349.831
0.02700847	350.103
0.02609293	350.375
0.02532998	350.646
0.02426184	350.918
0.0233463	351.19
0.02227817	351.462
0.02151522	351.734
0.02044709	352.006
0.01922637	352.278
0.01846342	352.55
0.01754788	352.821
0.01647974	353.093
0.0155642	353.365
0.01464866	353.637
0.01388571	353.909
0.01266499	354.181
0.01205463	354.453
0.01113909	354.724
0.01022354	354.996
0.009308	355.268
0.00839246	355.54
0.00747692	355.812
0.00656138	356.084
0.00564584	356.356
0.00488289	356.628
0.00411994	356.899
0.00335698	357.171
0.00228885	357.443
0.00167849	357.715
0.00076295	357.987
0	358.191