File: NMC532 vs graphite/hc_nmc.txt
volts	mAhg
3.01122	1.8797E-05
3.03716	0.000793233
3.06294	0.001669173
3.08919	0.002669173
3.11498	0.003796992
3.14092	0.005090226
3.1664	0.006575188
3.19188	0.008296992
3.21736	0.0103008
3.24269	0.012609
3.26802	0.01518797
3.29335	0.0180902
3.31868	0.0213609
3.34417	0.025094
3.36934	0.0293459
3.39467	0.0342594
3.41985	0.039985
3.44503	0.0466992
3.47021	0.054703
3.49523	0.0642744
3.52041	0.0767256
3.54543	0.096282
3.57061	0.138086
3.59472	0.279056
3.60357	0.420026
3.60861	0.561
3.61242	0.70197
3.61532	0.84294
3.61791	0.983914
3.61959	1.12488
3.62158	1.26585
3.6231	1.40683
3.62448	1.5478
3.62585	1.68877
3.62707	1.82974
3.62829	1.97071
3.62936	2.11168
3.63027	2.25265
3.63119	2.39362
3.63241	2.53459
3.63317	2.67557
3.63394	2.81654
3.63485	2.95751
3.63561	3.09848
3.63638	3.23945
3.63714	3.38042
3.6379	3.52139
3.63851	3.66236
3.63928	3.80333
3.64004	3.94431
3.6405	4.08528
3.64111	4.22625
3.64187	4.36722
3.64248	4.50819
3.64309	4.64916
3.64355	4.79014
3.64416	4.93111
3.64492	5.07208
3.64523	5.21305
3.64584	5.35402
3.64645	5.49499
3.64675	5.63596
3.647364	5.77693
3.64782	5.9179
3.64813	6.05888
3.64889	6.19985
3.6495	6.34082
3.64981	6.48179
3.65057	6.62276
3.65072	6.76373
3.65118	6.9047
3.65148	7.04567
3.65209	7.18664
3.6527	7.32762
3.65316	7.46859
3.65347	7.60956
3.65377	7.75053
3.65438	7.8915
3.65484	8.03247
3.65515	8.17344
3.6556	8.31441
3.65591	8.45538
3.65621	8.59636
3.65682	8.73733
3.65713	8.8783
3.65759	9.01927
3.6582	9.16024
3.65835	9.30121
3.65866	9.44218
3.65911	9.58315
3.65942	9.72412
3.65988	9.8651
3.66033	10.0061
3.66079	10.147
3.6611	10.288
3.6614	10.429
3.66186	10.57
3.66217	10.7109
3.66262	10.8519
3.66293	10.9929
3.66323	11.1338
3.66354	11.2748
3.66384	11.4158
3.66445	11.5568
3.66476	11.6977
3.66506	11.8387
3.66552	11.9797
3.66567	12.1206
3.66598	12.2616
3.66644	12.4026
3.66674	12.5435
3.66705	12.6845
3.66735	12.8255
3.66796	12.9665
3.66827	13.1074
3.66842	13.2484
3.66888	13.3894
3.66888	13.5303
3.669337	13.6713
3.66964	13.8123
3.6701	13.9533
3.67025	14.0942
3.67071	14.2352
3.67086	14.3762
3.67132	14.5171
3.67163	14.6581
3.67193	14.7991
3.67224	14.9401
3.67269	15.081
3.67285	15.222
3.6733	15.363
3.67361	15.5039
3.67376	15.6449
3.67407	15.7859
3.67453	15.9269
3.67468	16.0678
3.67498	16.2088
3.67529	16.3498
3.67575	16.4907
3.6759	16.6317
3.67636	16.7727
3.67651	16.9137
3.67666	17.0546
3.67712	17.1956
3.67742	17.3366
3.67773	17.4775
3.67819	17.6185
3.67834	17.7595
3.678645	17.9005
3.6791	18.0414
3.67926	18.1824
3.67956	18.3234
3.67987	18.4643
3.68017	18.6053
3.68048	18.7463
3.68078	18.8873
3.68093	19.0282
3.68124	19.1692
3.68139	19.3102
3.6817	19.4511
3.68215	19.5921
3.68231	19.7331
3.68276	19.874
3.68307	20.015
3.68322	20.156
3.68368	20.297
3.68383	20.4379
3.68399	20.5789
3.68444	20.7199
3.68444	20.8608
3.6849	21.0018
3.68521	21.1428
3.68536	21.2838
3.68582	21.4247
3.68627	21.5657
3.68627	21.7067
3.68658	21.8476
3.68688	21.9886
3.68719	22.1296
3.6875	22.2706
3.6875	22.4115
3.687953	22.5525
3.68826	22.6935
3.68841	22.8344
3.68887	22.9754
3.68902	23.1164
3.68948	23.2574
3.68948	23.3983
3.68994	23.5393
3.69024	23.6803
3.69055	23.8212
3.6907	23.9622
3.691	24.1032
3.69131	24.2442
3.69146	24.3851
3.69177	24.5261
3.69207	24.6671
3.69207	24.808
3.69238	24.949
3.69268	25.09
3.69329	25.231
3.69345	25.3719
3.69375	25.5129
3.69375	25.6539
3.69406	25.7948
3.69436	25.9358
3.69467	26.0768
3.69497	26.2178
3.69528	26.3587
3.69528	26.4997
3.69558	26.6407
3.69589	26.7816
3.69619	26.9226
3.69665	27.0636
3.6968	27.2045
3.69696	27.3455
3.69726	27.4865
3.69757	27.6275
3.69772	27.7684
3.69802	27.9094
3.69833	28.0504
3.69879	28.1913
3.69879	28.3323
3.69909	28.4733
3.69924	28.6143
3.69955	28.7552
3.69986	28.8962
3.70001	29.0372
3.70047	29.1781
3.70077	29.3191
3.70092	29.4601
3.70138	29.6011
3.70138	29.742
3.70153	29.883
3.70184	30.024
3.70214	30.1649
3.7023	30.3059
3.7026	30.4469
3.70306	30.5879
3.70306	30.7288
3.70336	30.8698
3.70367	31.0108
3.70397	31.1517
3.70443	31.2927
3.70443	31.4337
3.70474	31.5747
3.70489	31.7156
3.7052	31.8566
3.7055	31.9976
3.70581	32.1385
3.70596	32.2795
3.70611	32.4205
3.70642	32.5615
3.70672	32.7024
3.70687	32.8434
3.70718	32.9844
3.70733	33.1253
3.70779	33.2663
3.70779	33.4073
3.70825	33.5483
3.7084	33.6892
3.70871	33.8302
3.70901	33.9712
3.70916	34.1121
3.70932	34.2531
3.70962	34.3941
3.70962	34.5351
3.70993	34.676
3.71023	34.817
3.71038	34.958
3.71069	35.0989
3.71099	35.2399
3.7113	35.3809
3.71145	35.5218
3.71176	35.6628
3.71206	35.8038
3.71221	35.9448
3.71252	36.0857
3.71283	36.2267
3.71283	36.3677
3.71313	36.5086
3.71344	36.6496
3.71374	36.7906
3.71389	36.9316
3.71389	37.0725
3.71435	37.2135
3.71481	37.3545
3.71481	37.4954
3.71511	37.6364
3.71527	37.7774
3.71572	37.9184
3.71572	38.0593
3.71588	38.2003
3.71618	38.3413
3.71649	38.4822
3.71664	38.6232
3.71679	38.7642
3.71695	38.9052
3.71725	39.0461
3.71756	39.1871
3.71771	39.3281
3.71817	39.469
3.71847	39.61
3.71847	39.751
3.71893	39.892
3.71893	40.0329
3.719234	40.1739
3.71939	40.3149
3.71969	40.4558
3.71984	40.5968
3.72	40.7378
3.7203	40.8788
3.72045	41.0197
3.72061	41.1607
3.72091	41.3017
3.72122	41.4426
3.72152	41.5836
3.72152	41.7246
3.72183	41.8656
3.72229	42.0065
3.72244	42.1475
3.72259	42.2885
3.7229	42.4294
3.7229	42.5704
3.7232	42.7114
3.72335	42.8523
3.72366	42.9933
3.72396	43.1343
3.72412	43.2753
3.72427	43.4162
3.72442	43.5572
3.72457	43.6982
3.72488	43.8391
3.72503	43.9801
3.72549	44.1211
3.72564	44.2621
3.72595	44.403
3.7261	44.544
3.7261	44.685
3.72641	44.8259
3.72671	44.9669
3.72686	45.1079
3.72717	45.2489
3.72732	45.3898
3.72732	45.5308
3.72763	45.6718
3.72778	45.8127
3.72808	45.9537
3.72824	46.0947
3.72839	46.2357
3.728542	46.3766
3.72869	46.5176
3.7293	46.6586
3.72946	46.7995
3.72976	46.9405
3.72976	47.0815
3.73007	47.2225
3.73037	47.3634
3.73053	47.5044
3.73053	47.6454
3.73083	47.7863
3.73098	47.9273
3.73114	48.0683
3.73144	48.2093
3.73159	48.3502
3.7319	48.4912
3.7319	48.6322
3.7322	48.7731
3.73251	48.9141
3.73281	49.0551
3.73297	49.1961
3.73312	49.337
3.73327	49.478
3.73373	49.619
3.73373	49.7599
3.73388	49.9009
3.73434	50.0419
3.73434	50.1828
3.73465	50.3238
3.73495	50.4648
3.73495	50.6058
3.73526	50.7467
3.73541	50.8877
3.73556	51.0287
3.73571	51.1697
3.73617	51.3106
3.73648	51.4516
3.73648	51.5926
3.73678	51.7335
3.73678	51.8745
3.73709	52.0155
3.73739	52.1564
3.73739	52.2974
3.73754	52.4384
3.73785	52.5794
3.73816	52.7203
3.73831	52.8613
3.73861	53.0023
3.73861	53.1432
3.73892	53.2842
3.73907	53.4252
3.73922	53.5662
3.73938	53.7071
3.73968	53.8481
3.73999	53.9891
3.74014	54.13
3.74029	54.271
3.74044	54.412
3.7406	54.553
3.7409	54.6939
3.74105	54.8349
3.74136	54.9759
3.74166	55.1168
3.74182	55.2578
3.74197	55.3988
3.74212	55.5398
3.74243	55.6807
3.74243	55.8217
3.74273	55.9627
3.74273	56.1036
3.74319	56.2446
3.74319	56.3856
3.74365	56.5266
3.74365	56.6675
3.7438	56.8085
3.74411	56.9495
3.74456	57.0904
3.74456	57.2314
3.74487	57.3724
3.74502	57.5133
3.74517	57.6543
3.74533	57.7953
3.74563	57.9363
3.74578	58.0772
3.74594	58.2182
3.74609	58.3592
3.74624	58.5002
3.74655	58.6411
3.74685	58.7821
3.74716	58.9231
3.74731	59.064
3.74746	59.205
3.74762	59.346
3.74777	59.4869
3.74792	59.6279
3.74823	59.7689
3.74823	59.9099
3.74853	60.0508
3.74868	60.1918
3.74868	60.3328
3.74899	60.4737
3.74914	60.6147
3.74945	60.7557
3.7496	60.8967
3.7499	61.0376
3.7499	61.1786
3.75006	61.3196
3.75051	61.4605
3.75082	61.6015
3.75113	61.7425
3.75113	61.8835
3.75128	62.0244
3.75158	62.1654
3.75174	62.3064
3.75189	62.4473
3.75219	62.5883
3.75235	62.7293
3.7525	62.8703
3.75265	63.0112
3.7528	63.1522
3.75311	63.2932
3.75326	63.4341
3.75357	63.5751
3.75357	63.7161
3.75372	63.8571
3.75418	63.998
3.75448	64.139
3.75463	64.28
3.75479	64.4209
3.75494	64.5619
3.75509	64.7029
3.75525	64.8439
3.75555	64.9848
3.75601	65.1258
3.75586	65.2668
3.75586	65.4077
3.75631	65.5487
3.75647	65.6897
3.75677	65.8307
3.75692	65.9716
3.75723	66.1126
3.75723	66.2536
3.75753	66.3945
3.75769	66.5355
3.75799	66.6765
3.7583	66.8174
3.75845	66.9584
3.7586	67.0994
3.75875	67.2404
3.75891	67.3813
3.75921	67.5223
3.75952	67.6633
3.75967	67.8042
3.759823	67.9452
3.75998	68.0862
3.76028	68.2272
3.76059	68.3681
3.76074	68.5091
3.76074	68.6501
3.76104	68.791
3.76135	68.932
3.76165	69.073
3.76181	69.214
3.76196	69.3549
3.76211	69.4959
3.76242	69.6369
3.76242	69.7778
3.76272	69.9188
3.76303	70.0598
3.76318	70.2008
3.76349	70.3417
3.76364	70.4827
3.76364	70.6237
3.76394	70.7646
3.76425	70.9056
3.7644	71.0466
3.76486	71.1876
3.76455	71.3285
3.76516	71.4695
3.76532	71.6105
3.76547	71.7514
3.76593	71.8924
3.76593	72.0334
3.76623	72.1744
3.76638	72.3153
3.76654	72.4563
3.76684	72.5973
3.76699	72.7382
3.7673	72.8792
3.76761	73.0202
3.76776	73.1612
3.76791	73.3021
3.76822	73.4431
3.76837	73.5841
3.76867	73.725
3.76883	73.866
3.769131	74.007
3.76928	74.1479
3.76974	74.2889
3.76959	74.4299
3.77005	74.5709
3.7702	74.7118
3.77035	74.8528
3.7705	74.9938
3.77081	75.1347
3.77096	75.2757
3.77127	75.4167
3.77142	75.5577
3.77173	75.6986
3.77188	75.8396
3.77203	75.9806
3.77249	76.1215
3.77264	76.2625
3.77295	76.4035
3.7731	76.5445
3.77325	76.6854
3.77356	76.8264
3.77371	76.9674
3.77386	77.1083
3.77417	77.2493
3.77447	77.3903
3.77462	77.5313
3.77478	77.6722
3.77508	77.8132
3.77523	77.9542
3.77554	78.0951
3.77584	78.2361
3.77615	78.3771
3.7763	78.5181
3.77661	78.659
3.77691	78.8
3.77707	78.941
3.77737	79.0819
3.77768	79.2229
3.77768	79.3639
3.77798	79.5049
3.77813	79.6458
3.77859	79.7868
3.77859	79.9278
3.77905	80.0687
3.7792	80.2097
3.77951	80.3507
3.77996	80.4917
3.78012	80.6326
3.78027	80.7736
3.78058	80.9146
3.78073	81.0555
3.78103	81.1965
3.78134	81.3375
3.78149	81.4785
3.78164	81.6194
3.78195	81.7604
3.78241	81.9014
3.78256	82.0423
3.78286	82.1833
3.78317	82.3243
3.78347	82.4652
3.78363	82.6062
3.78393	82.7472
3.78408	82.8882
3.78424	83.0291
3.78454	83.1701
3.785	83.3111
3.78515	83.452
3.78531	83.593
3.78576	83.734
3.78592	83.875
3.78622	84.0159
3.78653	84.1569
3.78683	84.2979
3.78714	84.4388
3.78744	84.5798
3.78775	84.7208
3.7879	84.8618
3.7882	85.0027
3.78851	85.1437
3.78866	85.2847
3.78882	85.4256
3.78927	85.5666
3.78943	85.7076
3.78973	85.8486
3.79004	85.9895
3.79049	86.1305
3.7908	86.2715
3.79095	86.4124
3.79126	86.5534
3.79156	86.6944
3.79202	86.8354
3.79217	86.9763
3.79248	87.1173
3.79278	87.2583
3.79294	87.3992
3.79339	87.5402
3.7937	87.6812
3.79416	87.8222
3.79431	87.9631
3.79446	88.1041
3.79477	88.2451
3.79507	88.386
3.79568	88.527
3.79583	88.668
3.79599	88.809
3.79644	88.9499
3.79675	89.0909
3.79706	89.2319
3.79736	89.3728
3.79751	89.5138
3.79797	89.6548
3.79828	89.7957
3.79873	89.9367
3.79904	90.0777
3.79934	90.2187
3.7995	90.3596
3.7998	90.5006
3.80026	90.6416
3.80072	90.7825
3.80087	90.9235
3.80117	91.0645
3.80163	91.2055
3.80194	91.3464
3.80224	91.4874
3.80255	91.6284
3.80285	91.7693
3.80316	91.9103
3.80331	92.0513
3.80377	92.1923
3.80392	92.3332
3.80438	92.4742
3.80484	92.6152
3.80545	92.7561
3.80575	92.8971
3.80606	93.0381
3.80621	93.1791
3.80682	93.32
3.80697	93.461
3.80743	93.602
3.80789	93.7429
3.80804	93.8839
3.8085	94.0249
3.80896	94.1659
3.80926	94.3068
3.80972	94.4478
3.80987	94.5888
3.81033	94.7297
3.81079	94.8707
3.81109	95.0117
3.8114	95.1527
3.81201	95.2936
3.81231	95.4346
3.81247	95.5756
3.81308	95.7165
3.81353	95.8575
3.81384	95.9985
3.8143	96.1395
3.8146	96.2804
3.81476	96.4214
3.81537	96.5624
3.81598	96.7033
3.81643	96.8443
3.81659	96.9853
3.81704	97.1262
3.81735	97.2672
3.81765	97.4082
3.81811	97.5492
3.81872	97.6901
3.81918	97.8311
3.81949	97.9721
3.81994	98.113
3.8204	98.254
3.82071	98.395
3.82116	98.536
3.82162	98.6769
3.82208	98.8179
3.82238	98.9589
3.823	99.0998
3.8233	99.2408
3.82391	99.3818
3.82422	99.5228
3.82467	99.6637
3.82498	99.8047
3.82559	99.9457
3.82605	100.087
3.8265	100.228
3.82681	100.369
3.82742	100.51
3.82788	100.651
3.82818	100.7915
3.82849	100.932
3.82925	101.073
3.82971	101.214
3.83001	101.355
3.83062	101.496
3.83124	101.637
3.83154	101.778
3.832	101.919
3.8323	102.06
3.83291	102.201
3.83368	102.342
3.83398	102.483
3.83444	102.624
3.83505	102.765
3.8352	102.906
3.83581	103.047
3.83627	103.188
3.83703	103.329
3.83734	103.47
3.8378	103.611
3.83856	103.752
3.83902	103.893
3.83932	104.034
3.83978	104.175
3.84039	104.316
3.84115	104.457
3.84161	104.598
3.84192	104.739
3.84268	104.88
3.84298	105.021
3.8436	105.162
3.84436	105.303
3.84466	105.444
3.84512	105.585
3.84573	105.725
3.84619	105.866
3.84665	106.007
3.84726	106.148
3.84787	106.289
3.84817	106.43
3.84909	106.571
3.84939	106.712
3.85	106.853
3.85046	106.994
3.85092	107.135
3.85183	107.276
3.85229	107.417
3.8529	107.558
3.85367	107.699
3.85382	107.84
3.85473	107.981
3.85519	108.122
3.8558	108.263
3.85626	108.404
3.85702	108.545
3.85748	108.686
3.85794	108.827
3.8587	108.968
3.85946	109.109
3.85977	109.25
3.86038	109.391
3.86099	109.532
3.8613	109.673
3.86236	109.814
3.86267	109.955
3.86343	110.096
3.86419	110.237
3.8645	110.378
3.86496	110.519
3.86572	110.659
3.86648	110.8
3.86709	110.941
3.8677	111.082
3.86816	111.223
3.86877	111.364
3.86969	111.505
3.87015	111.646
3.87091	111.787
3.87152	111.928
3.87198	112.069
3.87274	112.21
3.87335	112.351
3.87411	112.492
3.87472	112.633
3.87518	112.774
3.87579	112.915
3.8764	113.056
3.87732	113.197
3.87793	113.338
3.87839	113.479
3.87915	113.62
3.87991	113.761
3.88052	113.902
3.88128	114.043
3.88205	114.184
3.88235	114.325
3.88296	114.466
3.88388	114.607
3.88449	114.748
3.8851	114.889
3.88586	115.03
3.88647	115.171
3.88724	115.312
3.888	115.4525
3.88861	115.593
3.88937	115.734
3.88983	115.875
3.89059	116.016
3.89136	116.157
3.89197	116.298
3.89258	116.439
3.89334	116.58
3.89425	116.721
3.89487	116.862
3.89548	117.003
3.89624	117.144
3.897	117.285
3.89761	117.426
3.89853	117.567
3.89914	117.708
3.89975	117.849
3.90051	117.99
3.90127	118.131
3.90204	118.272
3.90295	118.413
3.90356	118.554
3.90417	118.695
3.90478	118.836
3.9057	118.977
3.90646	119.118
3.90723	119.259
3.90784	119.4
3.90845	119.541
3.90921	119.682
3.91012	119.823
3.91073	119.964
3.9115	120.105
3.91226	120.246
3.91302	120.386
3.91379	120.527
3.91455	120.668
3.91516	120.809
3.91577	120.95
3.91669	121.091
3.9176	121.232
3.91836	121.373
3.918822	121.514
3.91989	121.655
3.92065	121.796
3.92142	121.937
3.92203	122.078
3.92279	122.219
3.9237	122.36
3.92432	122.501
3.92523	122.642
3.92599	122.783
3.9266	122.924
3.92752	123.065
3.92828	123.206
3.92905	123.347
3.92966	123.488
3.93072	123.629
3.93133	123.77
3.9321	123.911
3.93301	124.052
3.93362	124.193
3.93454	124.334
3.9353	124.475
3.93591	124.616
3.93683	124.757
3.93759	124.898
3.93851	125.039
3.93912	125.18
3.94003	125.32
3.94095	125.461
3.94156	125.602
3.94232	125.743
3.94339	125.884
3.944	126.025
3.94476	126.166
3.94583	126.307
3.94629	126.448
3.9472	126.589
3.94797	126.73
3.94888	126.871
3.94965	127.012
3.95041	127.153
3.95117	127.294
3.95193	127.435
3.95285	127.576
3.95377	127.717
3.95453	127.858
3.95499	127.999
3.95621	128.14
3.95682	128.281
3.95773	128.422
3.95865	128.563
3.95926	128.704
3.96017	128.845
3.96094	128.986
3.96185	129.127
3.96231	129.268
3.96353	129.409
3.96414	129.55
3.96506	129.691
3.96582	129.832
3.96674	129.973
3.9675	130.114
3.96841	130.254
3.96933	130.395
3.96994	130.536
3.97101	130.677
3.97162	130.818
3.97238	130.959
3.97314	131.1
3.97421	131.241
3.97498	131.382
3.97559	131.523
3.97635	131.664
3.97726	131.805
3.97818	131.946
3.9791	132.087
3.97986	132.228
3.98093	132.369
3.98154	132.51
3.9823	132.651
3.98306	132.792
3.98398	132.933
3.98489	133.074
3.98566	133.215
3.98657	133.356
3.98734	133.497
3.98825	133.638
3.98901	133.779
3.98978	133.92
3.99084	134.061
3.99161	134.202
3.99268	134.343
3.99329	134.484
3.99405	134.625
3.99496	134.766
3.99588	134.907
3.99664	135.047
3.99741	135.188
3.99832	135.329
3.99939	135.47
4	135.611
4.00092	135.752
4.00168	135.893
4.00259	136.034
4.00336	136.175
4.00443	136.316
4.00504	136.457
4.00626	136.598
4.00687	136.739
4.00778	136.88
4.00855	137.021
4.009308	137.162
4.01038	137.303
4.01114	137.444
4.0119	137.585
4.01282	137.726
4.01358	137.867
4.01465	138.008
4.01541	138.149
4.01617	138.29
4.0174	138.431
4.01801	138.572
4.01892	138.713
4.01968	138.854
4.0206	138.995
4.02136	139.136
4.02228	139.277
4.02289	139.418
4.0238	139.559
4.02502	139.7
4.02564	139.841
4.0264	139.981
4.02731	140.122
4.02838	140.263
4.02914	140.404
4.03006	140.545
4.03082	140.686
4.03189	140.827
4.03265	140.968
4.03342	141.109
4.03418	141.25
4.03525	141.391
4.03616	141.532
4.03677	141.673
4.03784	141.814
4.03876	141.955
4.03952	142.096
4.04028	142.237
4.0412	142.378
4.04211	142.519
4.04318	142.66
4.04395	142.801
4.04471	142.942
4.04578	143.083
4.04654	143.224
4.04746	143.365
4.04807	143.506
4.04913	143.647
4.05005	143.788
4.05097	143.929
4.05188	144.07
4.0528	144.211
4.05371	144.352
4.05447	144.493
4.05524	144.634
4.056	144.775
4.05707	144.915
4.05798	145.056
4.0589	145.197
4.05951	145.338
4.06073	145.479
4.06134	145.62
4.06226	145.761
4.06317	145.902
4.06424	146.043
4.065	146.184
4.06592	146.325
4.06683	146.466
4.0679	146.607
4.06882	146.748
4.06943	146.889
4.07034	147.03
4.07126	147.171
4.07218	147.312
4.07324	147.453
4.07416	147.594
4.07507	147.735
4.07614	147.876
4.07691	148.017
4.07752	148.158
4.07858	148.299
4.0795	148.44
4.08026	148.581
4.081178	148.722
4.08225	148.863
4.08316	149.004
4.08392	149.145
4.08484	149.286
4.08591	149.427
4.08682	149.568
4.08759	149.708
4.0885	149.849
4.08957	149.99
4.090486	150.131
4.09125	150.272
4.09232	150.413
4.09308	150.554
4.0943	150.695
4.09491	150.836
4.09583	150.977
4.09674	151.118
4.09766	151.259
4.09857	151.4
4.09949	151.541
4.10056	151.682
4.10132	151.823
4.10239	151.964
4.10315	152.105
4.10422	152.246
4.10498	152.387
4.1059	152.528
4.10697	152.669
4.10788	152.81
4.10895	152.951
4.10956	153.092
4.11063	153.233
4.1117	153.374
4.11246	153.515
4.11322	153.656
4.11444	153.797
4.11521	153.938
4.11627	154.079
4.11704	154.22
4.1181	154.361
4.11887	154.502
4.11978	154.642
4.12085	154.783
4.12192	154.924
4.12284	155.065
4.1236	155.206
4.12451	155.347
4.12558	155.488
4.12665	155.629
4.12757	155.77
4.12848	155.911
4.12924	156.052
4.13016	156.193
4.131075	156.334
4.13199	156.475
4.13306	156.616
4.13397	156.757
4.13489	156.898
4.13581	157.039
4.13672	157.18
4.13764	157.321
4.1387	157.462
4.13977	157.603
4.14069	157.744
4.14145	157.885
4.14237	158.026
4.14343	158.167
4.14435	158.308
4.14527	158.449
4.14618	158.59
4.1474	158.731
4.14832	158.872
4.14908	159.013
4.15	159.154
4.15106	159.295
4.15198	159.436
4.15305	159.576
4.15396	159.717
4.15503	159.858
4.15579	159.999
4.15671	160.14
4.15778	160.281
4.15885	160.422
4.15961	160.563
4.16068	160.704
4.16159	160.845
4.16266	160.986
4.16342	161.127
4.16434	161.268
4.16541	161.409
4.16632	161.55
4.16739	161.691
4.16831	161.832
4.16922	161.973
4.17014	162.114
4.17105	162.255
4.17212	162.396
4.17319	162.537
4.17395	162.678
4.17502	162.819
4.17594	162.96
4.17685	163.101
4.17792	163.242
4.17899	163.383
4.17975	163.524
4.180972	163.665
4.18173	163.806
4.18296	163.947
4.18372	164.088
4.18463	164.229
4.18555	164.369
4.18662	164.51
4.18753	164.651
4.18845	164.792
4.18936	164.933
4.19043	165.074
4.1912	165.215
4.19226	165.356
4.19333	165.497
4.19409	165.638
4.19532	165.779
4.19608	165.92
4.1973	166.061
4.19821	166.202
4.19913	166.343
4.20005	166.484
4.20127	166.625
4.20188	166.766
4.20294	166.907
4.20401	167.048
4.20493	167.189
4.20584	167.33
4.20676	167.471
4.20768	167.612
4.2089	167.753
4.20966	167.894
4.21042	168.035
4.2118	168.176
4.21271	168.317
4.21363	168.458
4.21439	168.599
4.21546	168.74
4.21637	168.881
4.21729	169.022
4.21836	169.163
4.21942	169.303
4.22034	169.444
4.22126	169.585
4.22217	169.726
4.22339	169.867
4.22416	170.008
4.22507	170.149
4.22614	170.29
4.22705	170.431
4.22797	170.572
4.22889	170.713
4.23011	170.854
4.230869	170.995
4.23178	171.136
4.23301	171.277
4.23407	171.418
4.23499	171.559
4.23575	171.7
4.23682	171.841
4.23789	171.982
4.23865	172.123
4.23957	172.264
4.24063	172.405
4.2417	172.546
4.24247	172.687
4.24369	172.828
4.24475	172.969
4.24552	173.11
4.24643	173.251
4.2475	173.392
4.24857	173.533
4.24964	173.674
4.2504	173.815
4.25132	173.956
4.25238	174.097
4.2533	174.237
4.25422	174.378
4.25528	174.519
4.2562	174.66
4.25711	174.801
4.25818	174.942
4.2591	175.083
4.26017	175.224
4.26078	175.365
4.262	175.506
4.26307	175.647
4.26383	175.788
4.2649	175.929
4.26596	176.07
4.26703	176.211
4.2678	176.352
4.26902	176.493
4.27008	176.634
4.27085	176.775
4.27161	176.916
4.27283	177.057
4.27359	177.198
4.27466	177.339
4.27573	177.48
4.27665	177.621
4.27756	177.762
4.27832	177.903
4.2797	178.044
4.28061	178.185
4.28138	178.326
4.28244	178.467
4.28351	178.608
4.28428	178.749
4.2855	178.89
4.28626	179.0305
4.28763	179.171
4.2884	179.312
4.28931	179.453
4.29038	179.594
4.29129	179.735
4.29221	179.876
4.29313	180.017
4.29419	180.158
4.29526	180.299
4.29633	180.44
4.29725	180.581
4.29831	180.722
4.29923	180.863
4.29999	181.004
4.30121	181.145
4.30213	181.286
4.30304	181.427
4.30381	181.568
4.30503	181.709
4.3061	181.85
4.30701	181.991
4.30777	182.132
4.309	182.273
4.31006	182.414
4.31098	182.555
4.31174	182.696
4.31296	182.837
4.31403	182.978
4.31464	183.119
4.31586	183.26
4.31678	183.401
4.318	183.542
4.31891	183.683
4.31983	183.824
4.32105	183.964
4.32181	184.105
4.32273	184.246
4.32395	184.387
4.32486	184.528
4.32593	184.669
4.32685	184.81
4.32776	184.951
4.32883	185.092
4.3299	185.233
4.33112	185.374
4.33188	185.515
4.33295	185.656
4.33387	185.797
4.33478	185.938
4.336	186.079
4.33722	186.22
4.33814	186.361
4.33906	186.502
4.33997	186.643
4.34119	186.784
4.34195	186.925
4.34318	187.066
4.34409	187.207
4.34516	187.348
4.34623	187.489
4.34714	187.63
4.34836	187.771
4.34928	187.912
4.35004	188.053
4.35111	188.194
4.35233	188.335
4.35325	188.476
4.35431	188.617
4.35554	188.758
4.35645	188.898
4.35737	189.039
4.35859	189.18
4.35966	189.321
4.36088	189.462
4.36164	189.603
4.36271	189.744
4.36393	189.885
4.36484	190.026
4.36591	190.167
4.36698	190.308
4.36805	190.449
4.36912	190.59
4.37034	190.731
4.3711	190.872
4.37217	191.013
4.37339	191.154
4.37446	191.295
4.37537	191.436
4.37659	191.577
4.37766	191.718
4.37858	191.859
4.37964	192
4.38071	192.141
4.38193	192.282
4.383	192.423
4.38422	192.564
4.38499	192.705
4.38605	192.846
4.38727	192.987
4.38849	193.128
4.38956	193.269
4.39063	193.41
4.3917	193.551
4.39277	193.6915
4.39368	193.832
4.3949	193.973
4.39597	194.114
4.39734	194.255
4.39826	194.396
4.39933	194.537
4.4004	194.678
4.40146	194.819
4.40269	194.96
4.4036	195.101
4.40482	195.242
4.40604	195.383
4.40711	195.524
4.40818	195.665
4.4094	195.806
4.41047	195.947
4.41169	196.088
4.41276	196.229
4.41382	196.37
4.41489	196.511
4.41596	196.652
4.41733	196.793
4.4184	196.934
4.41932	197.075
4.42069	197.216
4.42176	197.357
4.42283	197.498
4.4242	197.639
4.42527	197.78
4.42634	197.921
4.42756	198.062
4.42847	198.203
4.42985	198.344
4.43091	198.485
4.43198	198.625
4.4332	198.766
4.43442	198.907
4.43549	199.048
4.43641	199.189
4.43778	199.33
4.43885	199.471
4.43992	199.612
4.44099	199.753
4.44236	199.894
4.44343	200.035
4.44465	200.176
4.44572	200.317
4.44694	200.458
4.448	200.599
4.44938	200.74
4.45045	200.881
4.45151	201.022
4.45289	201.163
4.45396	201.304
4.45502	201.445
4.45609	201.586
4.45716	201.727
4.45838	201.868
4.4596	202.009
4.46082	202.15
4.46204	202.291
4.46326	202.432
4.46418	202.573
4.46571	202.714
4.46647	202.855
4.46769	202.996
4.46891	203.137
4.46967	203.278
4.4712	203.419
4.47227	203.559
4.47349	203.7
4.47471	203.841
4.47578	203.982
4.47684	204.123
4.47807	204.264
4.47929	204.405
4.48035	204.546
4.48173	204.687
4.4828	204.828
4.48386	204.969
4.48524	205.11
4.48631	205.251
4.48737	205.392
4.48859	205.533
4.48981	205.674
4.49088	205.815
4.4921	205.956
4.49317	206.097
4.49439	206.238
4.49546	206.379
4.49653	206.52
4.49775	206.661
4.49897	206.802
4.50004	206.891